NOTE: Copyright (c) 2002-2012 by SAS Institute Inc., Cary, NC, USA.
NOTE: SAS (r) Proprietary Software 9.4 (TS1M2 DBCS3170)
      Licensed to NATIONAL HOSPITAL ORG NAGOYA MEDICAL CENTER, Site 10206901.
NOTE: このセッションはX64_8PRO プラットフォーム上で実行されています。



NOTE: Updated analytical products:

      SAS/STAT 13.2
      SAS/IML 13.2

NOTE: Additional host information:

 X64_8PRO WIN 6.2.9200  Workstation

NOTE: SASシステム初期化処理:
      処理時間           4.44 秒
      CPU時間            3.45 秒

1    **********************************************************************;
2    * Project           : JACLS-ALL02
3    *
4    * Program name      : JACLS-ALL02_SDTM_DS.sas
5    *
6    * Author            : MATSUO YAMAMOTO
7    *
8    * Date created      : 20170330
9    *
10   * Purpose           : Create DS DataSet
11   *
12   * Revision History  :
13   *
14   * Date        Author           Ref    Revision (Date in YYYYMMDD format)
15   *
16   *
17   **********************************************************************;
18
19   /*** Initial setting ***/
20   %MACRO CURRENT_DIR;
21
22       %LOCAL _FULLPATH _PATH;
23       %LET   _FULLPATH = ;
24       %LET   _PATH     = ;
25
26       %IF %LENGTH(%SYSFUNC(GETOPTION(SYSIN))) = 0 %THEN
27           %LET _FULLPATH = %SYSGET(SAS_EXECFILEPATH);
28       %ELSE
29           %LET _FULLPATH = %SYSFUNC(GETOPTION(SYSIN));
30
31       %LET _PATH = %SUBSTR(   &_FULLPATH., 1, %LENGTH(&_FULLPATH.)
32                             - %LENGTH(%SCAN(&_FULLPATH.,-1,'\')) -1 );
33
34       &_PATH.
35
36   %MEND CURRENT_DIR;
37
38   %LET _PATH2 = %CURRENT_DIR;
39   %LET FILE = ds;
40
41   %INCLUDE "&_PATH2.\JACLS-ALL02_SDTM_LIBNAME.sas";
NOTE: WORK.SASMACR (memtype=CATALOG)を削除します。
NOTE: ファイルWORK.SASMACR (memtype=CATALOG)は使用中なので削除できません。

NOTE: PROCEDURE DATASETS処理(合計処理時間):
      処理時間           0.13 秒
      CPU時間            0.12 秒


NOTE: ライブラリ参照名LIBRAWを次のように割り当てました。
      エンジン: V9
      物理名: C:\Users\MatsuoYamamoto\Desktop\GitHub\knonc_mapping\JACLS-ALL02\input\rawdata
NOTE: ライブラリ参照名LIBEXTを次のように割り当てました。
      エンジン: V9
      物理名: C:\Users\MatsuoYamamoto\Desktop\GitHub\knonc_mapping\JACLS-ALL02\input\ext
NOTE: ライブラリ参照名LIBSDTMを次のように割り当てました。
      エンジン: V9
      物理名: C:\Users\MatsuoYamamoto\Desktop\GitHub\knonc_mapping\JACLS-ALL02\output\sdtm
102
103  /*** CSV read ***/
104  PROC IMPORT OUT= MAIN
105    DATAFILE="&RAW.\ALL-02_OSEFSdata v1.csv"
106    DBMS=CSV REPLACE;
107    GETNAMES=NO;
108    DATAROW=1;
109    GUESSINGROWS=5000;
110  RUN;

111   /**********************************************************************
112   *   プロダクト:   SAS
113   *   バージョン:   9.4
114   *   作成者:   外部ファイルインターフェイス
115   *   作成日:      30MAR17
116   *   説明:      生成された SAS データステップコード
117   *   テンプレート ソース:  (指定なし)
118   ***********************************************************************/
119      data WORK.MAIN    ;
120      %let _EFIERR_ = 0; /* エラー検出のマクロ変数を設定します */
121      infile
121! 'C:\Users\MatsuoYamamoto\Desktop\GitHub\knonc_mapping\JACLS-ALL02\input\rawdata\ALL-02_OSEFSdat
121! a v1.csv' delimiter = ',' MISSOVER DSD lrecl=32767 ;
122         informat VAR1 $3. ;
123         informat VAR2 $18. ;
124         informat VAR3 best32. ;
125         informat VAR4 best32. ;
126         informat VAR5 $2. ;
127         informat VAR6 $2. ;
128         informat VAR7 $2. ;
129         informat VAR8 $1. ;
130         informat VAR9 yymmdd10. ;
131         informat VAR10 best32. ;
132         informat VAR11 $10. ;
133         informat VAR12 best32. ;
134         informat VAR13 $2. ;
135         informat VAR14 yymmdd10. ;
136         informat VAR15 yymmdd10. ;
137         informat VAR16 yymmdd10. ;
138         informat VAR17 best32. ;
139         informat VAR18 $8. ;
140         informat VAR19 $83. ;
141         informat VAR20 $314. ;
142         informat VAR21 best32. ;
143         informat VAR22 $4. ;
144         informat VAR23 best32. ;
145         informat VAR24 $24. ;
146         informat VAR25 yymmdd10. ;
147         informat VAR26 yymmdd10. ;
148         informat VAR27 $358. ;
149         informat VAR28 $25. ;
150         informat VAR29 $8. ;
151         informat VAR30 yymmdd10. ;
152         informat VAR31 best32. ;
153         informat VAR32 yymmdd10. ;
154         informat VAR33 best32. ;
155         informat VAR34 yymmdd10. ;
156         informat VAR35 best32. ;
157         informat VAR36 yymmdd10. ;
158         informat VAR37 best32. ;
159         informat VAR38 yymmdd10. ;
160         informat VAR39 best32. ;
161         informat VAR40 yymmdd10. ;
162         informat VAR41 $81. ;
163         informat VAR42 best32. ;
164         informat VAR43 $8. ;
165         informat VAR44 yymmdd10. ;
166         informat VAR45 best32. ;
167         informat VAR46 $40. ;
168         informat VAR47 yymmdd10. ;
169         informat VAR48 best32. ;
170         informat VAR49 $8. ;
171         informat VAR50 yymmdd10. ;
172         informat VAR51 yymmdd10. ;
173         informat VAR52 best32. ;
174         informat VAR53 $4. ;
175         informat VAR54 yymmdd10. ;
176         informat VAR55 $17. ;
177         informat VAR56 best32. ;
178         informat VAR57 $8. ;
179         informat VAR58 $100. ;
180         informat VAR59 $536. ;
181         format VAR1 $3. ;
182         format VAR2 $18. ;
183         format VAR3 best12. ;
184         format VAR4 best12. ;
185         format VAR5 $2. ;
186         format VAR6 $2. ;
187         format VAR7 $2. ;
188         format VAR8 $1. ;
189         format VAR9 yymmdd10. ;
190         format VAR10 best12. ;
191         format VAR11 $10. ;
192         format VAR12 best12. ;
193         format VAR13 $2. ;
194         format VAR14 yymmdd10. ;
195         format VAR15 yymmdd10. ;
196         format VAR16 yymmdd10. ;
197         format VAR17 best12. ;
198         format VAR18 $8. ;
199         format VAR19 $83. ;
200         format VAR20 $314. ;
201         format VAR21 best12. ;
202         format VAR22 $4. ;
203         format VAR23 best12. ;
204         format VAR24 $24. ;
205         format VAR25 yymmdd10. ;
206         format VAR26 yymmdd10. ;
207         format VAR27 $358. ;
208         format VAR28 $25. ;
209         format VAR29 $8. ;
210         format VAR30 yymmdd10. ;
211         format VAR31 best12. ;
212         format VAR32 yymmdd10. ;
213         format VAR33 best12. ;
214         format VAR34 yymmdd10. ;
215         format VAR35 best12. ;
216         format VAR36 yymmdd10. ;
217         format VAR37 best12. ;
218         format VAR38 yymmdd10. ;
219         format VAR39 best12. ;
220         format VAR40 yymmdd10. ;
221         format VAR41 $81. ;
222         format VAR42 best12. ;
223         format VAR43 $8. ;
224         format VAR44 yymmdd10. ;
225         format VAR45 best12. ;
226         format VAR46 $40. ;
227         format VAR47 yymmdd10. ;
228         format VAR48 best12. ;
229         format VAR49 $8. ;
230         format VAR50 yymmdd10. ;
231         format VAR51 yymmdd10. ;
232         format VAR52 best12. ;
233         format VAR53 $4. ;
234         format VAR54 yymmdd10. ;
235         format VAR55 $17. ;
236         format VAR56 best12. ;
237         format VAR57 $8. ;
238         format VAR58 $100. ;
239         format VAR59 $536. ;
240      input
241                  VAR1 $
242                  VAR2 $
243                  VAR3
244                  VAR4
245                  VAR5 $
246                  VAR6 $
247                  VAR7 $
248                  VAR8 $
249                  VAR9
250                  VAR10
251                  VAR11 $
252                  VAR12
253                  VAR13 $
254                  VAR14
255                  VAR15
256                  VAR16
257                  VAR17
258                  VAR18 $
259                  VAR19 $
260                  VAR20 $
261                  VAR21
262                  VAR22 $
263                  VAR23
264                  VAR24 $
265                  VAR25
266                  VAR26
267                  VAR27 $
268                  VAR28 $
269                  VAR29 $
270                  VAR30
271                  VAR31
272                  VAR32
273                  VAR33
274                  VAR34
275                  VAR35
276                  VAR36
277                  VAR37
278                  VAR38
279                  VAR39
280                  VAR40
281                  VAR41 $
282                  VAR42
283                  VAR43 $
284                  VAR44
285                  VAR45
286                  VAR46 $
287                  VAR47
288                  VAR48
289                  VAR49 $
290                  VAR50
291                  VAR51
292                  VAR52
293                  VAR53 $
294                  VAR54
295                  VAR55 $
296                  VAR56
297                  VAR57 $
298                  VAR58 $
299                  VAR59 $
300      ;
301      if _ERROR_ then call symputx('_EFIERR_',1);  /* set ERROR detection macro variable */
302      run;

NOTE: 入力ファイル'C:\Users\MatsuoYamamoto\Desktop\GitHub\knonc_mapping\JACLS-ALL02\input\rawdata\AL
      L-02_OSEFSdata v1.csv' :

      ファイル名=C:\Users\MatsuoYamamoto\Desktop\GitHub\knonc_mapping\JACLS-ALL02\input\rawdata\ALL-
      02_OSEFSdata v1.csv,
      レコードフォーマット=V,論理レコード長=32767,
      ファイルサイズ (バイト)=239443,
      更新日時=2017年01月18日 14時09分06秒,
      作成日時=2017年03月30日 13時10分19秒

NOTE: 1252レコードを入力ファイル'C:\Users\MatsuoYamamoto\Desktop\GitHub\knonc_mapping\JACLS-ALL02\in
      put\rawdata\ALL-02_OSEFSdata v1.csv'から読み込みました。
      最小レコード長は119です。
      最大レコード長は789です。
NOTE: データセットWORK.MAINは1252オブザベーション、59変数です。
NOTE: DATAステートメント処理(合計処理時間):
      処理時間           0.65 秒
      CPU時間            0.56 秒


1252 行が WORK.MAIN に
C:\Users\MatsuoYamamoto\Desktop\GitHub\knonc_mapping\JACLS-ALL02\input\rawdata\ALL-02_OSEFSdata
v1.csv から作成されました。



NOTE: WORK.MAINデータセットが正常に作成されました。
NOTE: データセットWORK.MAINは1252オブザベーション、59変数です。
NOTE: PROCEDURE IMPORT処理(合計処理時間):
      処理時間           5.33 秒
      CPU時間            5.18 秒


303
304  /*** Extraction of mapping target ***/
305  DATA  WK01;
306    SET  MAIN;
307    IF  VAR1 = "0"; ***Eligibility only ;
308  RUN ;

NOTE: データセットWORK.MAINから1252オブザベーションを読み込みました。
NOTE: データセットWORK.WK01は1245オブザベーション、59変数です。
NOTE: DATAステートメント処理(合計処理時間):
      処理時間           0.05 秒
      CPU時間            0.03 秒


309
310  /*** Mapping ***/
311  DATA  WK02;
312    LENGTH DSTERM DSDECOD $200.;
313    SET  WK01;
314    STUDYID = "JACLS-ALL02";
315    DOMAIN = "DS";
316    USUBJID = COMPRESS(STUDYID)||"-"||COMPRESS(PUT(VAR3,Z4.));
317    IF  VAR22 = "完了" THEN DO;
318      DSTERM = "COMPLETED";
319      DSDECOD = "COMPLETED";
320      DSSTDTC = PUT(VAR30,IS8601DA.);
321    END;
322    ELSE DELETE;
323  RUN ;

NOTE: データセットWORK.WK01から1245オブザベーションを読み込みました。
NOTE: データセットWORK.WK02は1006オブザベーション、65変数です。
NOTE: DATAステートメント処理(合計処理時間):
      処理時間           0.07 秒
      CPU時間            0.06 秒


324
325  DATA  WK03;
326    LENGTH DSTERM DSDECOD $200.;
327    SET  WK01;
328    STUDYID = "JACLS-ALL02";
329    DOMAIN = "DS";
330    USUBJID = COMPRESS(STUDYID)||"-"||COMPRESS(PUT(VAR3,Z4.));
331    IF  KINDEX(VAR27,"有害事象のため")>0 THEN DO;
332      DSTERM = "ADVERSE EVENT";
333      DSDECOD = "ADVERSE EVENT";
334      DSSTDTC = PUT(VAR26,IS8601DA.);
335    END ;
336    ELSE DELETE;
337  RUN ;

NOTE: データセットWORK.WK01から1245オブザベーションを読み込みました。
NOTE: データセットWORK.WK03は88オブザベーション、65変数です。
NOTE: DATAステートメント処理(合計処理時間):
      処理時間           0.08 秒
      CPU時間            0.09 秒


338
339  DATA  WK04;
340    LENGTH DSTERM DSDECOD $200.;
341    SET  WK01;
342    STUDYID = "JACLS-ALL02";
343    DOMAIN = "DS";
344    USUBJID = COMPRESS(STUDYID)||"-"||COMPRESS(PUT(VAR3,Z4.));
345    IF  KINDEX(VAR27,"死亡")>0 THEN DO;
346      DSTERM = "DEATH";
347      DSDECOD = "DEATH";
348      DSSTDTC = PUT(VAR38,IS8601DA.);
349    END ;
350    ELSE DELETE;
351  RUN ;

NOTE: データセットWORK.WK01から1245オブザベーションを読み込みました。
NOTE: データセットWORK.WK04は12オブザベーション、65変数です。
NOTE: DATAステートメント処理(合計処理時間):
      処理時間           0.08 秒
      CPU時間            0.07 秒


352
353  DATA  WK05;
354    LENGTH DSTERM DSDECOD $200.;
355    SET  WK01;
356    STUDYID = "JACLS-ALL02";
357    DOMAIN = "DS";
358    USUBJID = COMPRESS(STUDYID)||"-"||COMPRESS(PUT(VAR3,Z4.));
359    IF  KINDEX(VAR27,"プロトコール違反")>0 OR KINDEX(VAR27,"不適格性")>0 THEN DO;
360      DSTERM = "PROTOCOL DEVIATION";
361      DSDECOD = "PROTOCOL DEVIATION";
362      DSSTDTC = PUT(VAR26,IS8601DA.);
363    END ;
364    ELSE DELETE;
365  RUN ;

NOTE: データセットWORK.WK01から1245オブザベーションを読み込みました。
NOTE: データセットWORK.WK05は13オブザベーション、65変数です。
NOTE: DATAステートメント処理(合計処理時間):
      処理時間           0.09 秒
      CPU時間            0.07 秒


366
367  DATA  WK06;
368    LENGTH DSTERM DSDECOD $200.;
369    SET  WK01;
370    STUDYID = "JACLS-ALL02";
371    DOMAIN = "DS";
372    USUBJID = COMPRESS(STUDYID)||"-"||COMPRESS(PUT(VAR3,Z4.));
373    IF  KINDEX(VAR27,"担当医により中止")>0 THEN DO;
374      DSTERM = "PHYSICIAN DECISION";
375      DSDECOD = "PHYSICIAN DECISION";
376      DSSTDTC = PUT(VAR26,IS8601DA.);
377    END ;
378    ELSE DELETE;
379  RUN ;

NOTE: データセットWORK.WK01から1245オブザベーションを読み込みました。
NOTE: データセットWORK.WK06は36オブザベーション、65変数です。
NOTE: DATAステートメント処理(合計処理時間):
      処理時間           0.09 秒
      CPU時間            0.06 秒


380
381  DATA  WK07;
382    LENGTH DSTERM DSDECOD $200.;
383    SET  WK01;
384    STUDYID = "JACLS-ALL02";
385    DOMAIN = "DS";
386    USUBJID = COMPRESS(STUDYID)||"-"||COMPRESS(PUT(VAR3,Z4.));
387    IF  KINDEX(VAR27,"治療リスクF群")>0 THEN DO;
388      DSTERM = "PHYSICIAN DECISION";
389      DSDECOD = "PHYSICIAN DECISION";
390      DSSTDTC = PUT(VAR26,IS8601DA.);
391    END ;
392    ELSE DELETE;
393  RUN ;

NOTE: データセットWORK.WK01から1245オブザベーションを読み込みました。
NOTE: データセットWORK.WK07は2オブザベーション、65変数です。
NOTE: DATAステートメント処理(合計処理時間):
      処理時間           0.07 秒
      CPU時間            0.06 秒


394
395  DATA  WK08;
396    LENGTH DSTERM DSDECOD $200.;
397    MERGE  WK01(IN=A)
398           WK02-WK07(IN=B KEEP=VAR3);
399    BY VAR3;
400    IF B=0;
401    STUDYID = "JACLS-ALL02";
402    DOMAIN = "DS";
403    USUBJID = COMPRESS(STUDYID)||"-"||COMPRESS(PUT(VAR3,Z4.));
404    DSTERM = "OTHER";
405    DSDECOD = "OTHER";
406    DSSTDTC = PUT(VAR26,IS8601DA.);
407  RUN ;

NOTE: データセットWORK.WK01から1245オブザベーションを読み込みました。
NOTE: データセットWORK.WK02から1006オブザベーションを読み込みました。
NOTE: データセットWORK.WK03から88オブザベーションを読み込みました。
NOTE: データセットWORK.WK04から12オブザベーションを読み込みました。
NOTE: データセットWORK.WK05から13オブザベーションを読み込みました。
NOTE: データセットWORK.WK06から36オブザベーションを読み込みました。
NOTE: データセットWORK.WK07から2オブザベーションを読み込みました。
NOTE: データセットWORK.WK08は88オブザベーション、65変数です。
NOTE: DATAステートメント処理(合計処理時間):
      処理時間           0.15 秒
      CPU時間            0.14 秒


408
409  DATA  WK21;
410    SET  WK02-WK08;
411    DSCAT = "DISPOSITION EVENT";
412    DROP VAR:;
413  RUN ;

NOTE: データセットWORK.WK02から1006オブザベーションを読み込みました。
NOTE: データセットWORK.WK03から88オブザベーションを読み込みました。
NOTE: データセットWORK.WK04から12オブザベーションを読み込みました。
NOTE: データセットWORK.WK05から13オブザベーションを読み込みました。
NOTE: データセットWORK.WK06から36オブザベーションを読み込みました。
NOTE: データセットWORK.WK07から2オブザベーションを読み込みました。
NOTE: データセットWORK.WK08から88オブザベーションを読み込みました。
NOTE: データセットWORK.WK21は1245オブザベーション、7変数です。
NOTE: DATAステートメント処理(合計処理時間):
      処理時間           0.10 秒
      CPU時間            0.11 秒


414
415  PROC SORT DATA=WK21 ;BY USUBJID DSSTDTC; RUN ;

NOTE: データセットWORK.WK21から1245オブザベーションを読み込みました。
NOTE: データセットWORK.WK21は1245オブザベーション、7変数です。
NOTE: PROCEDURE SORT処理(合計処理時間):
      処理時間           0.04 秒
      CPU時間            0.03 秒


416
417  DATA  WK20;
418    SET  WK21;
419    RETAIN DSSEQ;
420    BY  USUBJID;
421    IF FIRST.USUBJID = 1 THEN DSSEQ = 0;
422    DSSEQ = DSSEQ + 1;
423  RUN ;

NOTE: データセットWORK.WK21から1245オブザベーションを読み込みました。
NOTE: データセットWORK.WK20は1245オブザベーション、8変数です。
NOTE: DATAステートメント処理(合計処理時間):
      処理時間           0.05 秒
      CPU時間            0.04 秒


424
425  PROC SQL ;
426     CREATE TABLE LIBSDTM.&FILE AS
427     SELECT
428      STUDYID  LENGTH=20    LABEL="Study Identifier",
429      DOMAIN  LENGTH=2    LABEL="Domain Abbreviation",
430      USUBJID  LENGTH=40    LABEL="Unique Subject Identifier",
431      DSSEQ      LABEL="Sequence Number",
432      DSTERM  LENGTH=200    LABEL="Reported Term for the Disposition Event",
433      DSDECOD  LENGTH=200    LABEL="Standardized Disposition Term",
434      DSCAT  LENGTH=40    LABEL="Category for Disposition Event",
435      DSSTDTC  LENGTH=19    LABEL="Start Date/Time of Disposition Event"
436     FROM WK20;
NOTE: テーブルLIBSDTM.DS(行数1245、列数8)が作成されました。

437  QUIT ;
NOTE: PROCEDURE SQL処理(合計処理時間):
      処理時間           0.07 秒
      CPU時間            0.04 秒


438
439  FILENAME OUTF "&OUTPUT.\&FILE..csv" ;
440
441  PROC EXPORT DATA=LIBSDTM.&FILE. OUTFILE=OUTF
442    DBMS=CSV REPLACE;
443  RUN ;

444   /**********************************************************************
445   *   プロダクト:   SAS
446   *   バージョン:   9.4
447   *   作成者:   外部ファイルインターフェイス
448   *   作成日:      30MAR17
449   *   説明:      生成された SAS データステップコード
450   *   テンプレート ソース:  (指定なし)
451   ***********************************************************************/
452      data _null_;
453      %let _EFIERR_ = 0; /* エラー検出のマクロ変数を設定します */
454      %let _EFIREC_ = 0;     /* エクスポートレコードカウントのマクロ変数をクリアします */
455      file OUTF delimiter=',' DSD DROPOVER ;
456      if _n_ = 1 then        /* 列名またはラベルを書き出します */
457       do;
458         put
459            "STUDYID"
460         ','
461            "DOMAIN"
462         ','
463            "USUBJID"
464         ','
465            "DSSEQ"
466         ','
467            "DSTERM"
468         ','
469            "DSDECOD"
470         ','
471            "DSCAT"
472         ','
473            "DSSTDTC"
474         ;
475       end;
476     set  LIBSDTM.DS   end=EFIEOD;
477         format STUDYID $20. ;
478         format DOMAIN $2. ;
479         format USUBJID $40. ;
480         format DSSEQ best12. ;
481         format DSTERM $200. ;
482         format DSDECOD $200. ;
483         format DSCAT $40. ;
484         format DSSTDTC $19. ;
485       do;
486         EFIOUT + 1;
487         put STUDYID $ @;
488         put DOMAIN $ @;
489         put USUBJID $ @;
490         put DSSEQ @;
491         put DSTERM $ @;
492         put DSDECOD $ @;
493         put DSCAT $ @;
494         put DSSTDTC $ ;
495         ;
496       end;
497      if _ERROR_ then call symputx('_EFIERR_',1);  /* set ERROR detection macro variable */
498      if EFIEOD then call symputx('_EFIREC_',EFIOUT);
499      run;

NOTE: 出力ファイルOUTF :
      ファイル名=C:\Users\MatsuoYamamoto\Desktop\GitHub\knonc_mapping\JACLS-ALL02\output\sdtm\ds.csv
      ,
      レコードフォーマット=V,論理レコード長=32767,
      ファイルサイズ (バイト)=0,
      更新日時=2017年03月30日 14時17分31秒,
      作成日時=2017年03月30日 14時17分31秒

NOTE: 1246レコードを出力ファイルOUTFに書き込みました。
      最小レコード長は57です。
      最大レコード長は100です。
NOTE: データセットLIBSDTM.DSから1245オブザベーションを読み込みました。
NOTE: DATAステートメント処理(合計処理時間):
      処理時間           0.25 秒
      CPU時間            0.20 秒


1245 レコードが OUTF に LIBSDTM.DS から作成されました。


NOTE: "OUTF" ファイルが正常に作成されました。
NOTE: PROCEDURE EXPORT処理(合計処理時間):
      処理時間           0.51 秒
      CPU時間            0.42 秒


500
501  %SDTM_FIN;

NOTE: DATAステートメント処理(合計処理時間):
      処理時間           0.00 秒
      CPU時間            0.01 秒


